Folder: Electro_Analysis/Example_Raw_Data_Files/Electrodeposition (part 2)

File: Co16-FTO_CP_-500µA_30min.txt
Time (s);WE(1).Potential (V);Corrected time (s);Index;WE(1).Current (A);Current range
1.29733;-0.935059;0;1;-0.000499725;1 mA
9.29733;-0.901794;8;9;-0.000499817;1 mA
17.2973;-0.891418;16;17;-0.000499878;1 mA
25.2973;-0.883484;24;25;-0.000499878;1 mA
33.2973;-0.877075;32;33;-0.000499878;1 mA
41.2973;-0.871277;40;41;-0.000499847;1 mA
49.2973;-0.866394;48;49;-0.000499847;1 mA
57.2973;-0.862122;56;57;-0.000499817;1 mA
65.2973;-0.858154;64;65;-0.000499908;1 mA
73.2973;-0.855103;72;73;-0.000499878;1 mA
81.2973;-0.852051;80;81;-0.000499878;1 mA
89.2973;-0.849609;88;89;-0.000499786;1 mA
97.2973;-0.847168;96;97;-0.000499817;1 mA
105.297;-0.845032;104;105;-0.000499878;1 mA
113.297;-0.843201;112;113;-0.000499817;1 mA
121.297;-0.841675;120;121;-0.000499847;1 mA
129.297;-0.839844;128;129;-0.000499878;1 mA
137.297;-0.838623;136;137;-0.000499939;1 mA
145.297;-0.837402;144;145;-0.000499847;1 mA
153.297;-0.836182;152;153;-0.000499847;1 mA
161.297;-0.834961;160;161;-0.000499786;1 mA
169.297;-0.834045;168;169;-0.000499878;1 mA
177.297;-0.83313;176;177;-0.000499847;1 mA
185.297;-0.832214;184;185;-0.000499878;1 mA
193.297;-0.831604;192;193;-0.000499817;1 mA
201.297;-0.830994;200;201;-0.000499908;1 mA
209.297;-0.830383;208;209;-0.000499878;1 mA
217.297;-0.829773;216;217;-0.000499908;1 mA
225.297;-0.829163;224;225;-0.000499878;1 mA
233.297;-0.828552;232;233;-0.000499847;1 mA
241.297;-0.828247;240;241;-0.000499786;1 mA
249.297;-0.827942;248;249;-0.000499817;1 mA
257.297;-0.827637;256;257;-0.000499908;1 mA
265.297;-0.827332;264;265;-0.000499939;1 mA
273.297;-0.827026;272;273;-0.000499847;1 mA
281.297;-0.826721;280;281;-0.000499847;1 mA
289.297;-0.826721;288;289;-0.000499847;1 mA
297.297;-0.826416;296;297;-0.000499908;1 mA
305.297;-0.826416;304;305;-0.000499847;1 mA
313.297;-0.826111;312;313;-0.000499817;1 mA
321.297;-0.826111;320;321;-0.000499878;1 mA
329.297;-0.826111;328;329;-0.000499908;1 mA
337.297;-0.826111;336;337;-0.000499969;1 mA
345.297;-0.826111;344;345;-0.000499878;1 mA
353.297;-0.826111;352;353;-0.000499878;1 mA
361.297;-0.826111;360;361;-0.000499878;1 mA
369.297;-0.826416;368;369;-0.000499847;1 mA
377.297;-0.826416;376;377;-0.000499908;1 mA
385.297;-0.826416;384;385;-0.000499939;1 mA
393.297;-0.826721;392;393;-0.000499878;1 mA
401.297;-0.826721;400;401;-0.000499939;1 mA
409.297;-0.827026;408;409;-0.000499817;1 mA
417.297;-0.827026;416;417;-0.000499939;1 mA
425.297;-0.827332;424;425;-0.000499908;1 mA
433.297;-0.827637;432;433;-0.000499908;1 mA
441.297;-0.827942;440;441;-0.000499847;1 mA
449.297;-0.827942;448;449;-0.000499908;1 mA
457.297;-0.828247;456;457;-0.000499908;1 mA
465.297;-0.828552;464;465;-0.000499817;1 mA
473.297;-0.828857;472;473;-0.000499908;1 mA
481.297;-0.829163;480;481;-0.000499939;1 mA
489.297;-0.829468;488;489;-0.000499908;1 mA
497.297;-0.829773;496;497;-0.000499817;1 mA
505.297;-0.830078;504;505;-0.000499878;1 mA
513.297;-0.830688;512;513;-0.000499847;1 mA
521.297;-0.830994;520;521;-0.000499878;1 mA
529.297;-0.831299;528;529;-0.000499847;1 mA
537.297;-0.831604;536;537;-0.000499878;1 mA
545.297;-0.832214;544;545;-0.000499908;1 mA
553.297;-0.83252;552;553;-0.000499847;1 mA
561.297;-0.83313;560;561;-0.000499878;1 mA
569.297;-0.833435;568;569;-0.000499939;1 mA
577.297;-0.834045;576;577;-0.000499969;1 mA
585.297;-0.834351;584;585;-0.000499847;1 mA
593.297;-0.834961;592;593;-0.000499939;1 mA
601.297;-0.835571;600;601;-0.000499908;1 mA
609.297;-0.835876;608;609;-0.000499878;1 mA
617.297;-0.836487;616;617;-0.000499878;1 mA
625.297;-0.837097;624;625;-0.000499817;1 mA
633.297;-0.837708;632;633;-0.000499847;1 mA
641.297;-0.838318;640;641;-0.000499847;1 mA
649.297;-0.838928;648;649;-0.000499878;1 mA
657.297;-0.839233;656;657;-0.000499786;1 mA
665.297;-0.839844;664;665;-0.000499847;1 mA
673.297;-0.840759;672;673;-0.000499908;1 mA
681.297;-0.84137;680;681;-0.000499847;1 mA
689.297;-0.84198;688;689;-0.000499908;1 mA
697.297;-0.84259;696;697;-0.000499969;1 mA
705.297;-0.843506;704;705;-0.000499939;1 mA
713.297;-0.844116;712;713;-0.000499908;1 mA
721.297;-0.845032;720;721;-0.000499847;1 mA
729.297;-0.845642;728;729;-0.000499847;1 mA
737.297;-0.846558;736;737;-0.000499847;1 mA
745.297;-0.847473;744;745;-0.000499939;1 mA
753.297;-0.848389;752;753;-0.000499939;1 mA
761.297;-0.849304;760;761;-0.000499939;1 mA
769.297;-0.85022;768;769;-0.000499847;1 mA
777.297;-0.851135;776;777;-0.000499878;1 mA
785.297;-0.852356;784;785;-0.000499939;1 mA
793.297;-0.853271;792;793;-0.000499908;1 mA
801.297;-0.854492;800;801;-0.000499878;1 mA
809.297;-0.855713;808;809;-0.000499939;1 mA
817.297;-0.857239;816;817;-0.000499939;1 mA
825.297;-0.858459;824;825;-0.000499908;1 mA
833.297;-0.859985;832;833;-0.000499908;1 mA
841.297;-0.861511;840;841;-0.000499847;1 mA
849.297;-0.863342;848;849;-0.000499878;1 mA
857.297;-0.865173;856;857;-0.000499847;1 mA
865.297;-0.86731;864;865;-0.000499878;1 mA
873.297;-0.869446;872;873;-0.000499939;1 mA
881.297;-0.871887;880;881;-0.000499847;1 mA
889.297;-0.874634;888;889;-0.000499908;1 mA
897.297;-0.877686;896;897;-0.000499878;1 mA
905.297;-0.881042;904;905;-0.000499969;1 mA
913.297;-0.884705;912;913;-0.000499908;1 mA
921.297;-0.888672;920;921;-0.000499908;1 mA
929.297;-0.892639;928;929;-0.000499847;1 mA
937.297;-0.896606;936;937;-0.000499939;1 mA
945.297;-0.900269;944;945;-0.000499878;1 mA
953.297;-0.90332;952;953;-0.000499878;1 mA
961.297;-0.906067;960;961;-0.000499908;1 mA
969.297;-0.908508;968;969;-0.000499878;1 mA
977.297;-0.91095;976;977;-0.000499969;1 mA
985.297;-0.912781;984;985;-0.000499908;1 mA
993.297;-0.914612;992;993;-0.000499939;1 mA
1001.3;-0.916443;1000;1001;-0.000499908;1 mA
1009.3;-0.918274;1008;1009;-0.000499817;1 mA
1017.3;-0.9198;1016;1017;-0.000499847;1 mA
1025.3;-0.921631;1024;1025;-0.000499847;1 mA
1033.3;-0.923157;1032;1033;-0.000499969;1 mA
1041.3;-0.924377;1040;1041;-0.000499939;1 mA
1049.3;-0.925903;1048;1049;-0.000499847;1 mA
1057.3;-0.927429;1056;1057;-0.000499908;1 mA
1065.3;-0.92865;1064;1065;-0.000499878;1 mA
1073.3;-0.930176;1072;1073;-0.000499878;1 mA
1081.3;-0.931396;1080;1081;-0.000499847;1 mA
1089.3;-0.932617;1088;1089;-0.000499939;1 mA
1097.3;-0.933838;1096;1097;-0.000499878;1 mA
1105.3;-0.935059;1104;1105;-0.000499878;1 mA
1113.3;-0.936279;1112;1113;-0.000499908;1 mA
1121.3;-0.9375;1120;1121;-0.000499908;1 mA
1129.3;-0.938721;1128;1129;-0.000499939;1 mA
1137.3;-0.939941;1136;1137;-0.000499939;1 mA
1145.3;-0.941162;1144;1145;-0.000499939;1 mA
1153.3;-0.942383;1152;1153;-0.000499939;1 mA
1161.3;-0.943298;1160;1161;-0.000499908;1 mA
1169.3;-0.944519;1168;1169;-0.000499908;1 mA
1177.3;-0.94574;1176;1177;-0.000499878;1 mA
1185.3;-0.94696;1184;1185;-0.000499817;1 mA
1193.3;-0.948181;1192;1193;-0.000499908;1 mA
1201.3;-0.949402;1200;1201;-0.000499908;1 mA
1209.3;-0.950623;1208;1209;-0.000499847;1 mA
1217.3;-0.951843;1216;1217;-0.000499939;1 mA
1225.3;-0.953064;1224;1225;-0.000499847;1 mA
1233.3;-0.954285;1232;1233;-0.000499878;1 mA
1241.3;-0.955505;1240;1241;-0.000499939;1 mA
1249.3;-0.956726;1248;1249;-0.000499969;1 mA
1257.3;-0.957947;1256;1257;-0.000499969;1 mA
1265.3;-0.959167;1264;1265;-0.000499878;1 mA
1273.3;-0.960693;1272;1273;-0.000499908;1 mA
1281.3;-0.961914;1280;1281;-0.000499969;1 mA
1289.3;-0.96344;1288;1289;-0.000499969;1 mA
1297.3;-0.964661;1296;1297;-0.000499908;1 mA
1305.3;-0.966187;1304;1305;-0.000499939;1 mA
1313.3;-0.967407;1312;1313;-0.000499847;1 mA
1321.3;-0.968933;1320;1321;-0.000499908;1 mA
1329.3;-0.970459;1328;1329;-0.000499847;1 mA
1337.3;-0.971985;1336;1337;-0.000499939;1 mA
1345.3;-0.973816;1344;1345;-0.000499847;1 mA
1353.3;-0.975342;1352;1353;-0.000499939;1 mA
1361.3;-0.976868;1360;1361;-0.000499847;1 mA
1369.3;-0.978699;1368;1369;-0.000499878;1 mA
1377.3;-0.98053;1376;1377;-0.000499908;1 mA
1385.3;-0.982361;1384;1385;-0.000499939;1 mA
1393.3;-0.984192;1392;1393;-0.000499908;1 mA
1401.3;-0.986328;1400;1401;-0.000499939;1 mA
1409.3;-0.988464;1408;1409;-0.0005;1 mA
1417.3;-0.990601;1416;1417;-0.000499908;1 mA
1425.3;-0.992737;1424;1425;-0.000499939;1 mA
1433.3;-0.995178;1432;1433;-0.000499847;1 mA
1441.3;-0.99762;1440;1441;-0.000499939;1 mA
1449.3;-1.00037;1448;1449;-0.000499908;1 mA
1457.3;-1.00311;1456;1457;-0.000499969;1 mA
1465.3;-1.00586;1464;1465;-0.000499939;1 mA
1473.3;-1.00922;1472;1473;-0.000499908;1 mA
1481.3;-1.01227;1480;1481;-0.000499939;1 mA
1489.3;-1.01593;1488;1489;-0.000499939;1 mA
1497.3;-1.0199;1496;1497;-0.000499939;1 mA
1505.3;-1.02386;1504;1505;-0.000499908;1 mA
1513.3;-1.02844;1512;1513;-0.000499878;1 mA
1521.3;-1.03363;1520;1521;-0.0005;1 mA
1529.3;-1.03912;1528;1529;-0.000499939;1 mA
1537.3;-1.04553;1536;1537;-0.000499908;1 mA
1545.3;-1.05286;1544;1545;-0.0005;1 mA
1553.3;-1.0611;1552;1553;-0.000499908;1 mA
1561.3;-1.07117;1560;1561;-0.000499939;1 mA
1569.3;-1.08368;1568;1569;-0.000499908;1 mA
1577.3;-1.09924;1576;1577;-0.000499939;1 mA
1585.3;-1.12061;1584;1585;-0.000499908;1 mA
1593.3;-1.15112;1592;1593;-0.000499939;1 mA
1601.3;-1.11725;1600;1601;-0.000499939;1 mA
1609.3;-1.12274;1608;1609;-0.000499847;1 mA
1617.3;-1.13586;1616;1617;-0.000499878;1 mA
1625.3;-1.15784;1624;1625;-0.000499878;1 mA
1633.3;-1.27167;1632;1633;-0.000499939;1 mA
1641.3;-1.15601;1640;1641;-0.000499878;1 mA
1649.3;-1.138;1648;1649;-0.000499939;1 mA
1657.3;-1.14014;1656;1657;-0.000499908;1 mA
1665.3;-1.16577;1664;1665;-0.000499908;1 mA
1673.3;-1.12091;1672;1673;-0.000499878;1 mA
1681.3;-1.11176;1680;1681;-0.000499878;1 mA
1689.3;-1.14014;1688;1689;-0.000499969;1 mA
1697.3;-1.27472;1696;1697;-0.000499969;1 mA
1705.3;-1.26648;1704;1705;-0.000499847;1 mA
1713.3;-1.15906;1712;1713;-0.000499939;1 mA
1721.3;-1.1557;1720;1721;-0.000499939;1 mA
1729.3;-1.26251;1728;1729;-0.000499939;1 mA
1737.3;-1.14105;1736;1737;-0.000499969;1 mA
1745.3;-1.26587;1744;1745;-0.000499939;1 mA
1753.3;-1.14655;1752;1753;-0.000499939;1 mA
1761.3;-1.2027;1760;1761;-0.000499908;1 mA
1769.3;-1.24664;1768;1769;-0.000499969;1 mA
1777.3;-1.19049;1776;1777;-0.000499939;1 mA
1785.3;-1.24573;1784;1785;-0.000499908;1 mA
1793.3;-1.23291;1792;1793;-0.000499908;1 mA
1800.3;-1.20758;1799;1800;-0.000499878;1 mA